Data from h2-3_HR4C25001_18-05-21-197.txt Node
Date: Thu Aug 31 18:05:21 CDT 2023
User: kk37594
Spectrometer: HR4C2500
Trigger mode: 4
Integration Time (sec): 2.500000E-1
Scans to average: 5
Electric dark correction enabled: true
Nonlinearity correction enabled: false
Boxcar width: 0
XAxis mode: Wavelengths
Number of Pixels in Spectrum: 3648
>>>>>Begin Spectral Data<<<<<
629.667	-136.45
629.685	-136.45
629.703	-136.45
629.722	-158.05
629.74	-114.85
629.758	0.55
629.776	9.75
629.795	39.95
629.813	10.55
629.831	-23.85
629.85	11.15
629.868	15.75
629.886	33.55
629.905	-42.85
629.923	-29.85
629.941	-11.45
629.96	-2.45
629.978	-10.85
629.996	-15.45
630.014	49.35
630.033	41.75
630.051	26.75
630.069	12.35
630.088	45.75
630.106	14.35
630.124	-22.05
630.142	-8.45
630.161	-27.45
630.179	-18.65
630.197	-14.85
630.216	52.75
630.234	210.15
630.252	79.95
630.27	27.75
630.289	18.35
630.307	12.75
630.325	-1.65
630.343	-4.45
630.362	28.35
630.38	66.75
630.398	17.55
630.416	-1.25
630.435	-13.25
630.453	12.15
630.471	30.55
630.489	8.35
630.507	23.95
630.526	21.15
630.544	19.95
630.562	6.95
630.58	4.95
630.599	17.95
630.617	5.35
630.635	-15.25
630.653	6.55
630.671	32.35
630.69	6.35
630.708	12.15
630.726	16.55
630.744	13.15
630.762	-10.05
630.781	-19.65
630.799	4.55
630.817	28.95
630.835	41.95
630.853	-1.25
630.871	-6.65
630.89	22.75
630.908	3.15
630.926	-31.65
630.944	28.95
630.962	83.75
630.98	110.55
630.999	26.35
631.017	14.75
631.035	8.55
631.053	-18.25
631.071	7.15
631.089	1.35
631.108	1.95
631.126	21.55
631.144	7.15
631.162	14.75
631.18	30.35
631.198	24.15
631.216	-1.85
631.234	-19.25
631.253	8.95
631.271	15.55
631.289	10.15
631.307	11.15
631.325	23.15
631.343	38.55
631.361	3.35
631.379	19.15
631.398	16.15
631.416	10.15
631.434	-16.65
631.452	-6.45
631.47	-23.25
631.488	-16.85
631.506	-24.25
631.524	-23.25
631.542	9.15
631.56	5.35
631.578	0.75
631.597	0.15
631.615	-30.05
631.633	-12.85
631.651	-1.05
631.669	-14.25
631.687	46.55
631.705	64.35
631.723	16.75
631.741	-0.65
631.759	10.55
631.777	2.35
631.795	11.35
631.813	16.95
631.831	5.75
631.849	38.55
631.867	22.15
631.885	14.75
631.903	35.95
631.922	-10.05
631.94	-15.25
631.958	-6.45
631.976	29.35
631.994	-5.45
632.012	-20.25
632.03	9.35
632.048	43.15
632.066	37.15
632.084	-4.45
632.102	-12.45
632.12	-21.65
632.138	-6.45
632.156	16.15
632.174	-15.25
632.192	-22.65
632.21	-7.65
632.228	-30.25
632.246	-16.65
632.264	19.15
632.282	40.75
632.3	-9.25
632.318	-2.05
632.336	15.95
632.354	20.55
632.372	-2.45
632.39	5.55
632.408	8.95
632.426	-20.25
632.443	21.55
632.461	4.75
632.479	8.75
632.497	10.95
632.515	0.15
632.533	21.35
632.551	29.95
632.569	15.55
632.587	-17.05
632.605	-17.05
632.623	17.75
632.641	30.95
632.659	-37.05
632.677	-17.85
632.695	-4.25
632.713	-6.25
632.731	9.95
632.748	12.75
632.766	27.95
632.784	35.55
632.802	13.35
632.82	29.35
632.838	10.75
632.856	-8.25
632.874	10.55
632.892	-1.65
632.91	1.35
632.928	11.55
632.945	0.15
632.963	11.95
632.981	27.35
632.999	11.55
633.017	-8.85
633.035	9.35
633.053	7.75
633.071	7.35
633.089	-21.65
633.106	5.75
633.124	44.75
633.142	4.95
633.16	16.75
633.178	14.35
633.196	42.35
633.214	36.55
633.231	13.35
633.249	-21.45
633.267	2.55
633.285	15.55
633.303	-31.45
633.321	-19.05
633.339	25.15
633.356	55.35
633.374	14.75
633.392	-0.65
633.41	-9.45
633.428	13.35
633.446	-3.65
633.463	-30.25
633.481	-14.85
633.499	-19.85
633.517	-6.45
633.535	-8.05
633.552	16.55
633.57	-5.25
633.588	-26.65
633.606	-32.85
633.624	8.35
633.641	11.75
633.659	-15.65
633.677	-30.85
633.695	-6.45
633.713	26.95
633.73	7.15
633.748	-16.05
633.766	-2.45
633.784	10.35
633.802	-11.85
633.819	-9.05
633.837	-1.45
633.855	-53.25
633.873	-59.65
633.89	-34.45
633.908	13.55
633.926	2.55
633.944	-21.85
633.961	-2.45
633.979	27.35
633.997	-43.05
634.015	-7.85
634.032	28.95
634.05	40.35
634.068	-10.25
634.086	16.15
634.103	13.95
634.121	2.75
634.139	31.15
634.157	0.95
634.174	-4.45
634.192	-6.25
634.21	-0.25
634.227	13.95
634.245	22.75
634.263	41.55
634.281	55.95
634.298	4.35
634.316	1.75
634.334	4.15
634.351	-19.05
634.369	-37.65
634.387	9.75
634.404	29.75
634.422	-6.85
634.44	-12.45
634.458	-29.25
634.475	25.35
634.493	57.95
634.511	-15.05
634.528	-3.85
634.546	8.55
634.564	3.55
634.581	-40.25
634.599	-0.25
634.617	23.75
634.634	16.15
634.652	-20.65
634.67	-12.05
634.687	33.75
634.705	14.35
634.723	-12.85
634.74	23.35
634.758	11.95
634.775	-1.45
634.793	-14.45
634.811	36.15
634.828	22.75
634.846	-5.65
634.864	-13.85
634.881	29.35
634.899	-1.65
634.917	-5.85
634.934	-13.65
634.952	19.75
634.969	24.35
634.987	22.75
635.005	-5.65
635.022	16.15
635.04	31.55
635.057	8.55
635.075	-17.65
635.093	5.95
635.11	29.35
635.128	21.75
635.145	-12.85
635.163	24.95
635.181	17.35
635.198	23.55
635.216	11.55
635.233	8.35
635.251	30.15
635.268	-6.45
635.286	-5.45
635.304	-16.65
635.321	-23.85
635.339	-41.25
635.356	-31.65
635.374	-13.85
635.391	-7.65
635.409	-14.65
635.426	0.55
635.444	-0.25
635.462	-3.45
635.479	-2.45
635.497	-12.65
635.514	11.55
635.532	15.35
635.549	2.15
635.567	-19.05
635.584	6.75
635.602	65.35
635.619	55.55
635.637	-20.85
635.654	11.95
635.672	-2.45
635.689	15.75
635.707	-9.05
635.724	-3.05
635.742	-10.65
635.759	-20.45
635.777	-19.25
635.795	-2.65
635.812	42.15
635.829	4.55
635.847	-30.05
635.864	5.75
635.882	22.95
635.899	28.75
635.917	-14.45
635.934	-24.45
635.952	-6.05
635.969	-8.25
635.987	26.95
636.004	77.15
636.022	29.55
636.039	-16.25
636.057	3.55
636.074	1.15
636.092	9.75
636.109	-12.65
636.127	0.75
636.144	-5.05
636.161	49.75
636.179	1.55
636.196	-15.65
636.214	-15.85
636.231	6.75
636.249	-10.65
636.266	-12.85
636.283	11.75
636.301	25.35
636.318	9.15
636.336	-10.25
636.353	-4.25
636.371	25.95
636.388	3.75
636.405	9.35
636.423	13.95
636.44	23.75
636.458	-10.05
636.475	-31.45
636.492	-26.25
636.51	-8.25
636.527	-2.25
636.545	-11.85
636.562	-10.25
636.579	-14.05
636.597	-25.25
636.614	-16.05
636.632	-7.25
636.649	52.35
636.666	37.35
636.684	-4.25
636.701	-22.05
636.718	-21.25
636.736	-15.05
636.753	-2.65
636.771	16.95
636.788	26.55
636.805	3.75
636.823	-16.05
636.84	-13.85
636.857	-14.45
636.875	-29.05
636.892	-26.65
636.909	24.55
636.927	27.75
636.944	-10.85
636.961	-31.05
636.979	-23.65
636.996	3.75
637.013	-2.45
637.031	-19.05
637.048	-35.05
637.065	6.15
637.083	9.55
637.1	-28.25
637.117	-30.45
637.135	17.35
637.152	27.15
637.169	-3.85
637.187	-18.05
637.204	27.35
637.221	12.55
637.238	-14.25
637.256	36.35
637.273	15.55
637.29	21.55
637.308	-18.85
637.325	-10.45
637.342	13.75
637.359	43.95
637.377	36.35
637.394	62.55
637.411	6.75
637.428	12.15
637.446	-23.25
637.463	4.35
637.48	73.75
637.498	23.35
637.515	-11.85
637.532	15.75
637.549	3.55
637.567	-13.25
637.584	-14.45
637.601	-6.85
637.618	21.75
637.636	14.15
637.653	-5.45
637.67	-13.25
637.687	13.35
637.704	12.15
637.722	-1.45
637.739	12.35
637.756	39.95
637.773	26.95
637.791	-10.65
637.808	13.75
637.825	9.75
637.842	17.95
637.859	-10.05
637.877	-1.85
637.894	7.15
637.911	-1.65
637.928	-18.85
637.945	12.95
637.963	35.35
637.98	21.95
637.997	3.55
638.014	-25.05
638.031	-1.25
638.049	18.75
638.066	-21.25
638.083	-0.05
638.1	9.95
638.117	3.95
638.134	-17.65
638.152	-17.05
638.169	-28.45
638.186	-14.45
638.203	-32.05
638.22	-43.25
638.237	-40.05
638.255	-31.85
638.272	-27.25
638.289	-16.85
638.306	-11.85
638.323	9.15
638.34	7.15
638.357	16.75
638.374	56.15
638.392	-10.65
638.409	-30.65
638.426	-9.45
638.443	5.55
638.46	-1.25
638.477	3.75
638.494	26.35
638.511	35.15
638.529	20.95
638.546	-34.25
638.563	-16.65
638.58	7.75
638.597	13.95
638.614	-5.25
638.631	-1.25
638.648	8.15
638.665	3.75
638.682	-3.05
638.7	10.95
638.717	30.75
638.734	-0.45
638.751	-7.65
638.768	1.35
638.785	1.55
638.802	-12.85
638.819	-5.65
638.836	12.75
638.853	47.75
638.87	-6.65
638.887	-38.85
638.904	-19.65
638.921	25.75
638.939	28.15
638.956	7.55
638.973	-9.85
638.99	20.75
639.007	31.75
639.024	-0.65
639.041	14.75
639.058	36.35
639.075	14.95
639.092	16.35
639.109	-39.25
639.126	-33.05
639.143	-11.25
639.16	-15.85
639.177	23.95
639.194	64.35
639.211	67.15
639.228	33.95
639.245	-7.05
639.262	-1.05
639.279	-4.85
639.296	6.15
639.313	12.75
639.33	-1.65
639.347	20.95
639.364	-4.45
639.381	0.55
639.398	25.55
639.415	18.55
639.432	1.95
639.449	-18.25
639.466	23.95
639.483	26.35
639.5	7.95
639.517	-3.65
639.534	-25.25
639.551	-31.05
639.568	-48.45
639.585	-24.65
639.602	13.55
639.619	5.15
639.636	11.55
639.653	27.55
639.669	-12.65
639.686	-4.65
639.703	15.55
639.72	15.15
639.737	8.15
639.754	28.15
639.771	27.15
639.788	47.15
639.805	65.55
639.822	10.35
639.839	-8.85
639.856	-4.65
639.873	10.55
639.89	33.35
639.906	-22.65
639.923	-10.85
639.94	11.75
639.957	20.15
639.974	-5.25
639.991	13.55
640.008	22.15
640.025	12.95
640.042	-13.65
640.059	-8.65
640.075	6.35
640.092	26.95
640.109	12.75
640.126	13.95
640.143	-7.85
640.16	-9.85
640.177	-9.85
640.194	-23.85
640.21	-7.05
640.227	19.35
640.244	6.95
640.261	25.35
640.278	46.55
640.295	12.15
640.312	-33.85
640.328	-14.05
640.345	18.15
640.362	-1.45
640.379	-15.65
640.396	32.95
640.413	78.75
640.43	5.75
640.446	-37.05
640.463	-13.25
640.48	-10.65
640.497	-24.25
640.514	-23.05
640.531	-1.05
640.547	19.55
640.564	11.15
640.581	26.15
640.598	28.35
640.615	1.95
640.631	1.55
640.648	-19.05
640.665	-3.45
640.682	36.55
640.699	-18.85
640.715	-10.25
640.732	-9.25
640.749	-1.25
640.766	30.95
640.783	19.75
640.799	6.75
640.816	28.95
640.833	12.55
640.85	2.95
640.866	18.15
640.883	68.95
640.9	14.75
640.917	-8.65
640.933	-29.65
640.95	-16.45
640.967	-1.25
640.984	-18.45
641.001	-26.05
641.017	-20.65
641.034	-20.05
641.051	-19.25
641.068	-21.05
641.084	25.75
641.101	2.15
641.118	8.55
641.134	-7.05
641.151	-3.85
641.168	-3.05
641.185	-20.65
641.201	29.15
641.218	38.95
641.235	-1.25
641.252	-14.65
641.268	12.15
641.285	2.15
641.302	6.15
641.318	-27.85
641.335	-19.65
641.352	1.75
641.368	18.55
641.385	10.35
641.402	13.35
641.419	24.75
641.435	18.55
641.452	44.55
641.469	12.35
641.485	0.75
641.502	8.95
641.519	-21.45
641.535	-6.45
641.552	50.35
641.569	47.55
641.585	-13.05
641.602	4.75
641.619	24.55
641.635	-20.45
641.652	-18.25
641.669	9.95
641.685	26.75
641.702	26.95
641.719	25.55
641.735	24.55
641.752	7.95
641.769	-2.45
641.785	-18.45
641.802	-25.45
641.818	30.15
641.835	49.55
641.852	13.55
641.868	12.55
641.885	22.35
641.902	-2.85
641.918	-10.45
641.935	12.15
641.951	10.35
641.968	-15.65
641.985	-44.85
642.001	-2.85
642.018	17.35
642.034	11.75
642.051	-14.85
642.068	-33.65
642.084	1.95
642.101	1.95
642.117	3.95
642.134	1.15
642.151	19.55
642.167	-0.45
642.184	-21.25
642.2	18.15
642.217	56.75
642.233	40.75
642.25	-0.85
642.267	13.95
642.283	32.15
642.3	7.75
642.316	-29.05
642.333	-6.25
642.349	-13.85
642.366	-32.25
642.382	-47.65
642.399	180.55
642.416	471.95
642.432	56.95
642.449	-38.05
642.465	-7.85
642.482	17.55
642.498	-2.45
642.515	-4.05
642.531	-15.25
642.548	4.55
642.564	21.95
642.581	9.15
642.597	-0.05
642.614	25.95
642.63	38.75
642.647	-2.25
642.663	14.95
642.68	3.55
642.696	19.35
642.713	-18.65
642.729	2.95
642.746	36.95
642.762	6.15
642.779	-5.65
642.795	-21.25
642.812	-22.65
642.828	-28.05
642.845	-24.45
642.861	-18.05
642.878	-17.45
642.894	0.35
642.911	32.15
642.927	-12.85
642.944	11.95
642.96	49.15
642.977	-2.05
642.993	9.95
643.01	11.15
643.026	-12.25
643.042	-23.25
643.059	-3.85
643.075	-15.25
643.092	-34.05
643.108	-42.45
643.125	-21.85
643.141	-9.25
643.158	-14.25
643.174	-5.25
643.19	62.15
643.207	51.15
643.223	-7.05
643.24	-0.05
643.256	-4.85
643.272	-14.45
643.289	-12.65
643.305	-7.65
643.322	10.35
643.338	14.15
643.355	13.15
643.371	17.35
643.387	3.75
643.404	-11.25
643.42	-4.05
643.437	6.95
643.453	38.95
643.469	13.95
643.486	-3.45
643.502	15.75
643.518	5.55
643.535	-14.05
643.551	17.75
643.568	-8.65
643.584	-0.25
643.6	-5.65
643.617	17.15
643.633	2.55
643.649	8.75
643.666	10.75
643.682	-7.45
643.698	-6.85
643.715	-19.05
643.731	-3.65
643.748	-12.65
643.764	-9.65
643.78	-5.65
643.797	19.15
643.813	24.15
643.829	23.95
643.846	-0.05
643.862	49.95
643.878	46.55
643.895	11.95
643.911	22.55
643.927	20.95
643.943	30.95
643.96	-28.25
643.976	-33.65
643.992	13.95
644.009	31.35
644.025	-4.25
644.041	2.95
644.058	27.15
644.074	29.35
644.09	-0.05
644.106	10.95
644.123	11.95
644.139	-2.05
644.155	-13.25
644.172	-15.65
644.188	43.75
644.204	28.95
644.22	9.95
644.237	14.15
644.253	12.75
644.269	13.35
644.286	0.95
644.302	-14.45
644.318	2.55
644.334	14.75
644.351	19.55
644.367	3.35
644.383	12.75
644.399	13.75
644.416	8.55
644.432	-15.45
644.448	-25.05
644.464	-23.45
644.481	-14.85
644.497	-6.65
644.513	11.95
644.529	-3.25
644.545	9.55
644.562	-0.65
644.578	16.15
644.594	5.15
644.61	2.15
644.627	-10.25
644.643	7.15
644.659	-13.85
644.675	-51.65
644.691	-35.85
644.708	-1.85
644.724	18.55
644.74	-11.25
644.756	4.95
644.772	24.95
644.789	39.95
644.805	7.15
644.821	-15.65
644.837	8.75
644.853	32.15
644.869	5.15
644.886	14.55
644.902	43.35
644.918	46.75
644.934	17.75
644.95	39.95
644.966	8.15
644.983	0.35
644.999	-16.85
645.015	-12.05
645.031	24.35
645.047	32.35
645.063	10.35
645.079	94.95
645.096	216.95
645.112	28.35
645.128	17.55
645.144	5.75
645.16	35.55
645.176	19.55
645.192	2.15
645.209	23.75
645.225	26.95
645.241	40.35
645.257	34.15
645.273	24.15
645.289	33.15
645.305	5.75
645.321	6.95
645.337	11.15
645.354	31.55
645.37	-2.05
645.386	0.55
645.402	6.75
645.418	4.35
645.434	-14.25
645.45	-13.25
645.466	6.15
645.482	2.35
645.498	13.55
645.514	-25.25
645.531	-16.25
645.547	5.75
645.563	11.15
645.579	-8.65
645.595	10.15
645.611	4.55
645.627	26.95
645.643	21.15
645.659	25.15
645.675	32.15
645.691	5.95
645.707	-3.25
645.723	-10.05
645.739	16.35
645.755	7.95
645.771	-21.05
645.787	1.95
645.803	44.95
645.819	66.95
645.835	-9.65
645.852	30.15
645.868	20.95
645.884	-0.65
645.9	-10.85
645.916	-4.65
645.932	-10.45
645.948	-2.05
645.964	-6.25
645.98	7.15
645.996	33.55
646.012	44.75
646.028	10.55
646.044	1.75
646.06	-4.85
646.076	-2.85
646.092	11.35
646.108	-9.65
646.124	23.15
646.14	23.55
646.156	2.35
646.172	30.15
646.188	40.95
646.203	0.55
646.219	-24.65
646.235	45.55
646.251	74.75
646.267	14.15
646.283	16.55
646.299	3.55
646.315	56.95
646.331	64.15
646.347	19.75
646.363	-10.25
646.379	-9.85
646.395	-30.25
646.411	-16.25
646.427	-4.85
646.443	-12.45
646.459	-16.25
646.475	12.55
646.491	16.35
646.506	4.75
646.522	-29.25
646.538	-15.85
646.554	-17.65
646.57	3.35
646.586	9.95
646.602	9.95
646.618	0.95
646.634	12.35
646.65	21.75
646.666	-10.25
646.682	-20.45
646.697	21.35
646.713	11.95
646.729	-8.85
646.745	0.35
646.761	39.75
646.777	27.55
646.793	-10.05
646.809	-7.05
646.824	-20.05
646.84	-4.25
646.856	-16.45
646.872	-5.65
646.888	29.75
646.904	-14.65
646.92	-5.05
646.936	0.95
646.951	-8.05
646.967	12.15
646.983	38.75
646.999	25.55
647.015	24.35
647.031	52.75
647.047	-1.65
647.062	-20.05
647.078	-14.65
647.094	-17.45
647.11	-15.85
647.126	-23.05
647.142	10.95
647.157	55.35
647.173	5.55
647.189	-12.85
647.205	-30.45
647.221	-36.65
647.236	-5.45
647.252	-1.65
647.268	-12.85
647.284	-10.45
647.3	17.95
647.315	1.15
647.331	6.35
647.347	30.95
647.363	0.15
647.379	9.15
647.394	20.95
647.41	22.75
647.426	-1.05
647.442	-6.85
647.458	12.55
647.473	18.35
647.489	9.75
647.505	20.35
647.521	27.35
647.536	5.15
647.552	-26.65
647.568	-20.85
647.584	21.55
647.599	16.95
647.615	-10.85
647.631	4.95
647.647	9.95
647.662	5.55
647.678	-17.85
647.694	-26.65
647.71	-13.25
647.725	-42.45
647.741	-46.65
647.757	-22.85
647.773	14.35
647.788	27.35
647.804	-3.45
647.82	10.75
647.835	36.95
647.851	21.55
647.867	-7.45
647.883	-3.85
647.898	15.15
647.914	33.35
647.93	23.75
647.945	-5.25
647.961	25.55
647.977	29.75
647.993	-4.65
648.008	13.35
648.024	26.75
648.04	-11.25
648.055	-7.85
648.071	-6.25
648.087	4.75
648.102	-20.25
648.118	-26.25
648.134	-20.05
648.149	16.95
648.165	13.15
648.181	-11.05
648.196	-22.05
648.212	-13.05
648.228	-3.45
648.243	-1.25
648.259	6.75
648.275	-0.85
648.29	11.55
648.306	0.75
648.322	3.75
648.337	3.55
648.353	37.95
648.368	40.15
648.384	74.35
648.4	25.75
648.415	-3.65
648.431	-2.45
648.447	16.55
648.462	51.75
648.478	24.15
648.493	-27.25
648.509	-0.25
648.525	24.75
648.54	-22.65
648.556	-22.25
648.572	18.55
648.587	19.35
648.603	3.35
648.618	11.35
648.634	0.55
648.65	26.35
648.665	20.35
648.681	-15.05
648.696	14.55
648.712	61.95
648.727	62.55
648.743	45.55
648.759	47.15
648.774	53.75
648.79	5.55
648.805	-29.85
648.821	-7.85
648.836	20.15
648.852	-10.25
648.868	-18.65
648.883	0.15
648.899	3.55
648.914	-13.45
648.93	-0.25
648.945	18.75
648.961	58.35
648.976	33.75
648.992	9.15
649.007	9.15
649.023	15.35
649.039	18.15
649.054	-12.85
649.07	10.15
649.085	-8.65
649.101	11.15
649.116	-17.05
649.132	6.55
649.147	15.55
649.163	5.55
649.178	-8.05
649.194	6.15
649.209	59.95
649.225	44.95
649.24	25.15
649.256	53.15
649.271	39.55
649.287	8.95
649.302	-12.85
649.318	-4.05
649.333	-19.25
649.349	1.55
649.364	12.75
649.38	31.15
649.395	35.55
649.41	25.35
649.426	11.15
649.441	-14.85
649.457	8.95
649.472	-14.25
649.488	-5.45
649.503	23.15
649.519	46.75
649.534	39.95
649.55	32.95
649.565	42.95
649.581	39.55
649.596	8.95
649.611	-0.05
649.627	17.55
649.642	11.55
649.658	-11.05
649.673	17.75
649.689	38.35
649.704	38.75
649.719	42.95
649.735	12.55
649.75	42.95
649.766	23.15
649.781	20.35
649.796	-15.45
649.812	7.95
649.827	36.55
649.843	5.55
649.858	15.95
649.874	-7.45
649.889	16.75
649.904	22.75
649.92	-5.65
649.935	-19.65
649.95	30.75
649.966	-6.25
649.981	-7.05
649.997	15.75
650.012	2.35
650.027	-7.05
650.043	-8.85
650.058	1.95
650.073	12.35
650.089	28.35
650.104	27.75
650.12	-12.65
650.135	-2.85
650.15	-2.25
650.166	11.15
650.181	5.75
650.196	25.55
650.212	20.35
650.227	-10.85
650.242	18.35
650.258	25.15
650.273	16.95
650.288	-6.05
650.304	15.95
650.319	14.75
650.334	1.95
650.35	8.95
650.365	66.75
650.38	40.75
650.396	-5.25
650.411	0.15
650.426	4.15
650.441	18.95
650.457	18.75
650.472	5.55
650.487	15.15
650.503	-11.85
650.518	-18.05
650.533	0.75
650.549	31.95
650.564	45.35
650.579	17.35
650.594	10.15
650.61	11.15
650.625	24.75
650.64	19.95
650.656	-19.85
650.671	-17.65
650.686	10.35
650.701	31.95
650.717	11.75
650.732	29.55
650.747	23.95
650.762	8.75
650.778	16.35
650.793	6.95
650.808	22.95
650.823	9.75
650.839	4.55
650.854	9.55
650.869	38.55
650.884	57.75
650.9	3.55
650.915	8.35
650.93	-7.05
650.945	-2.05
650.96	10.75
650.976	8.55
650.991	1.35
651.006	-3.05
651.021	-5.85
651.037	7.75
651.052	12.35
651.067	-44.45
651.082	-20.45
651.097	-23.05
651.113	-16.05
651.128	-18.25
651.143	15.35
651.158	-5.45
651.173	9.15
651.189	42.95
651.204	-17.45
651.219	-18.65
651.234	34.75
651.249	33.15
651.264	0.15
651.28	-9.65
651.295	-8.85
651.31	34.75
651.325	-39.85
651.34	-16.45
651.355	-5.25
651.371	-30.45
651.386	-48.45
651.401	-6.25
651.416	18.35
651.431	0.75
651.446	-29.25
651.461	-33.85
651.477	16.55
651.492	50.55
651.507	7.75
651.522	1.55
651.537	-6.25
651.552	-20.25
651.567	-9.65
651.583	15.15
651.598	33.75
651.613	-35.65
651.628	-4.25
651.643	-5.45
651.658	-8.05
651.673	-5.85
651.688	-8.65
651.703	18.55
651.719	58.55
651.734	66.15
651.749	-14.25
651.764	-5.45
651.779	15.75
651.794	4.55
651.809	-17.45
651.824	15.15
651.839	-1.05
651.854	17.95
651.869	9.55
651.884	26.15
651.9	7.15
651.915	-15.25
651.93	-15.85
651.945	20.95
651.96	22.35
651.975	9.75
651.99	5.75
652.005	-16.85
652.02	11.55
652.035	48.35
652.05	66.55
652.065	183.35
652.08	26.55
652.095	-6.85
652.11	35.95
652.125	21.35
652.14	19.95
652.155	20.35
652.17	21.75
652.185	3.15
652.2	34.15
652.215	33.95
652.23	-15.45
652.245	-0.25
652.261	44.35
652.276	40.55
652.291	24.95
652.306	6.55
652.321	28.95
652.336	17.95
652.351	-14.25
652.366	1.35
652.381	40.75
652.396	39.15
652.41	14.95
652.425	37.75
652.44	45.95
652.455	-6.05
652.47	3.75
652.485	2.75
652.5	-12.85
652.515	-26.05
652.53	-7.65
652.545	-6.05
652.56	0.35
652.575	-17.65
652.59	31.75
652.605	65.55
652.62	16.35
652.635	-13.65
652.65	-19.85
652.665	-15.25
652.68	28.55
652.695	28.35
652.71	-16.65
652.725	-17.85
652.74	15.55
652.755	13.55
652.769	28.55
652.784	-4.45
652.799	14.95
652.814	29.95
652.829	15.95
652.844	1.35
652.859	-16.25
652.874	4.55
652.889	17.35
652.904	16.15
652.919	-9.65
652.934	2.55
652.948	5.75
652.963	3.95
652.978	-5.05
652.993	6.35
653.008	19.95
653.023	-6.05
653.038	-0.45
653.053	-5.45
653.068	-15.05
653.082	-11.45
653.097	13.55
653.112	16.55
653.127	-1.65
653.142	38.35
653.157	73.35
653.172	8.55
653.186	18.75
653.201	15.35
653.216	32.95
653.231	44.15
653.246	-4.85
653.261	-21.25
653.276	34.95
653.29	51.15
653.305	2.55
653.32	-5.45
653.335	-13.05
653.35	-10.45
653.365	12.75
653.379	-13.85
653.394	-8.85
653.409	2.95
653.424	-6.85
653.439	2.95
653.454	2.35
653.468	-22.85
653.483	-22.45
653.498	-5.25
653.513	32.15
653.528	34.35
653.542	2.75
653.557	-23.45
653.572	-5.65
653.587	26.15
653.602	4.55
653.616	-4.05
653.631	-24.45
653.646	-16.85
653.661	8.95
653.675	3.55
653.69	-6.85
653.705	-19.85
653.72	-19.65
653.735	-8.25
653.749	5.75
653.764	24.35
653.779	6.75
653.794	20.15
653.808	16.15
653.823	9.55
653.838	13.55
653.853	44.55
653.867	-7.25
653.882	-14.65
653.897	19.35
653.912	39.75
653.926	63.55
653.941	33.15
653.956	21.35
653.971	-26.25
653.985	-15.05
654	11.15
654.015	9.35
654.029	20.35
654.044	52.35
654.059	17.35
654.074	37.35
654.088	185.15
654.103	404.95
654.118	71.95
654.132	42.35
654.147	27.15
654.162	7.15
654.177	18.35
654.191	-25.05
654.206	-22.25
654.221	24.95
654.235	24.35
654.25	78.55
654.265	156.55
654.279	90.95
654.294	57.15
654.309	39.75
654.323	59.55
654.338	53.55
654.353	47.35
654.367	31.75
654.382	34.15
654.397	10.55
654.411	18.35
654.426	27.15
654.441	39.95
654.455	16.35
654.47	2.15
654.485	17.95
654.499	36.35
654.514	44.15
654.528	32.95
654.543	26.75
654.558	43.35
654.572	39.15
654.587	39.75
654.602	20.15
654.616	14.55
654.631	21.75
654.645	43.15
654.66	16.75
654.675	13.15
654.689	47.55
654.704	54.75
654.719	45.35
654.733	40.15
654.748	63.75
654.762	40.75
654.777	52.75
654.792	35.55
654.806	33.75
654.821	72.35
654.835	50.15
654.85	45.15
654.864	36.35
654.879	21.35
654.894	19.95
654.908	23.55
654.923	31.75
654.937	27.75
654.952	33.15
654.966	52.95
654.981	68.35
654.996	38.95
655.01	58.15
655.025	26.55
655.039	44.15
655.054	39.15
655.068	36.15
655.083	58.35
655.097	48.35
655.112	28.15
655.126	22.35
655.141	40.15
655.156	67.95
655.17	39.75
655.185	33.35
655.199	51.35
655.214	87.15
655.228	98.35
655.243	59.75
655.257	59.75
655.272	75.95
655.286	35.75
655.301	33.75
655.315	58.15
655.33	77.35
655.344	87.35
655.359	81.95
655.373	81.15
655.388	86.15
655.402	136.55
655.417	159.35
655.431	173.35
655.446	230.35
655.46	189.75
655.475	210.55
655.489	228.55
655.504	250.55
655.518	239.15
655.532	245.95
655.547	310.95
655.561	395.75
655.576	398.95
655.59	434.55
655.605	474.95
655.619	560.95
655.634	709.35
655.648	870.95
655.663	1193.75
655.677	2143.95
655.691	4497.35
655.706	9511.75
655.72	15564.35
655.735	15564.35
655.749	15564.35
655.764	15564.35
655.778	15564.35
655.792	15564.35
655.807	15564.35
655.821	15564.35
655.836	15564.35
655.85	15564.35
655.865	15564.35
655.879	15564.35
655.893	15564.35
655.908	15564.35
655.922	15564.35
655.937	15564.35
655.951	15564.35
655.965	15564.35
655.98	15564.35
655.994	15564.35
656.009	15564.35
656.023	15564.35
656.037	15564.35
656.052	15564.35
656.066	15390.35
656.08	7057.55
656.095	947.35
656.109	239.75
656.124	175.15
656.138	187.15
656.152	151.95
656.167	162.35
656.181	136.55
656.195	157.75
656.21	127.15
656.224	81.95
656.238	102.95
656.253	129.75
656.267	139.75
656.281	60.55
656.296	62.95
656.31	106.95
656.324	114.35
656.339	81.95
656.353	56.35
656.367	77.75
656.382	40.55
656.396	18.95
656.41	25.35
656.425	53.15
656.439	52.75
656.453	16.35
656.468	32.75
656.482	46.75
656.496	29.35
656.51	29.75
656.525	39.15
656.539	46.35
656.553	30.15
656.568	27.35
656.582	31.75
656.596	47.55
656.611	13.95
656.625	9.35
656.639	31.35
656.653	60.15
656.668	37.35
656.682	19.75
656.696	13.95
656.71	29.35
656.725	56.35
656.739	45.15
656.753	55.35
656.767	22.55
656.782	29.55
656.796	60.15
656.81	104.15
656.824	13.95
656.839	21.35
656.853	9.15
656.867	26.95
656.881	50.75
656.896	17.35
656.91	8.35
656.924	20.75
656.938	44.35
656.953	29.15
656.967	24.35
656.981	53.35
656.995	34.75
657.009	26.55
657.024	-14.25
657.038	-17.85
657.052	14.95
657.066	76.55
657.08	14.35
657.095	13.15
657.109	-6.45
657.123	9.55
657.137	-2.05
657.151	13.55
657.166	14.35
657.18	0.95
657.194	-43.85
657.208	-4.85
657.222	12.55
657.237	20.15
657.251	8.55
657.265	16.95
657.279	10.75
657.293	-15.25
657.307	-4.65
657.322	-7.45
657.336	40.55
657.35	92.35
657.364	29.95
657.378	27.95
657.392	5.95
657.406	39.35
657.421	20.15
657.435	8.35
657.449	31.95
657.463	17.55
657.477	29.15
657.491	37.35
657.505	-12.65
657.52	-7.45
657.534	-2.25
657.548	-6.65
657.562	61.15
657.576	82.95
657.59	4.95
657.604	13.35
657.618	29.35
657.632	31.35
657.647	11.35
657.661	0.15
657.675	37.55
657.689	40.15
657.703	-0.65
657.717	-1.45
657.731	13.35
657.745	37.55
657.759	-1.45
657.773	-10.65
657.787	4.55
657.802	-4.85
657.816	6.35
657.83	0.95
657.844	-6.25
657.858	27.15
657.872	-7.65
657.886	-1.45
657.9	10.35
657.914	42.35
657.928	40.95
657.942	25.35
657.956	34.75
657.97	6.75
657.984	30.15
657.998	101.55
658.012	32.35
658.026	-26.85
658.04	-8.45
658.054	-9.25
658.069	-18.05
658.083	-8.25
658.097	2.35
658.111	22.95
658.125	60.15
658.139	67.95
658.153	17.35
658.167	43.75
658.181	34.15
658.195	0.15
658.209	-23.25
658.223	-11.85
658.237	24.75
658.251	17.75
658.265	0.75
658.279	6.15
658.293	3.35
658.307	4.75
658.321	-7.05
658.335	-1.85
658.349	15.35
658.363	23.55
658.377	-9.45
658.391	23.95
658.405	47.15
658.418	26.15
658.432	-4.45
658.446	-34.85
658.46	-9.65
658.474	14.15
658.488	6.15
658.502	32.55
658.516	33.15
658.53	-2.85
658.544	-11.85
658.558	3.95
658.572	3.95
658.586	43.75
658.6	10.35
658.614	-30.65
658.628	-0.85
658.642	34.55
658.656	11.75
658.67	-11.45
658.683	144.75
658.697	370.95
658.711	28.95
658.725	9.75
658.739	29.75
658.753	29.55
658.767	-3.05
658.781	14.35
658.795	6.75
658.809	-21.85
658.823	-8.05
658.836	2.95
658.85	49.55
658.864	24.15
658.878	11.75
658.892	-6.45
658.906	14.35
658.92	17.55
658.934	-11.65
658.947	-14.65
658.961	-10.45
658.975	23.75
658.989	-27.65
659.003	-25.85
659.017	-18.65
659.031	-12.05
659.045	3.75
659.058	10.55
659.072	4.55
659.086	4.15
659.1	21.15
659.114	21.75
659.128	-2.85
659.141	11.95
659.155	13.75
659.169	20.95
659.183	37.55
659.197	-0.25
659.211	0.75
659.224	20.35
659.238	107.35
659.252	65.35
659.266	23.95
659.28	35.55
659.294	19.75
659.307	-11.45
659.321	-3.45
659.335	-21.85
659.349	-30.25
659.363	-1.25
659.376	30.75
659.39	16.55
659.404	-17.05
659.418	-0.45
659.432	5.55
659.445	5.75
659.459	41.55
659.473	-12.45
659.487	1.75
659.5	-3.45
659.514	1.95
659.528	27.95
659.542	33.55
659.556	-5.85
659.569	18.15
659.583	10.75
659.597	16.55
659.611	18.55
659.624	123.15
659.638	226.95
659.652	5.75
659.666	-15.05
659.679	11.75
659.693	4.95
659.707	10.55
659.721	13.35
659.734	27.35
659.748	-0.65
659.762	-4.05
659.776	2.15
659.789	46.15
659.803	-27.45
659.817	-29.25
659.83	11.55
659.844	27.75
659.858	-3.85
659.872	-17.25
659.885	-5.65
659.899	9.75
659.913	28.55
659.926	38.15
659.94	13.75
659.954	23.55
659.967	14.75
659.981	4.15
659.995	-0.65
660.009	26.15
660.022	26.35
660.036	18.55
660.05	-23.65
660.063	16.95
660.077	37.55
660.091	16.75
660.104	-31.25
660.118	9.75
660.132	22.75
660.145	-2.45
660.159	-1.05
660.173	7.55
660.186	21.55
660.2	-22.85
660.214	-35.25
660.227	10.15
660.241	6.55
660.254	-21.65
660.268	-11.65
660.282	28.15
660.295	17.55
660.309	-10.25
660.323	-15.25
660.336	-33.85
660.35	-35.25
660.364	6.55
660.377	0.75
660.391	66.55
660.404	41.15
660.418	15.15
660.432	-12.05
660.445	17.75
660.459	19.55
660.472	-13.65
660.486	-13.25
660.5	-1.65
660.513	5.35
660.527	-7.05
660.54	19.75
660.554	46.35
660.568	19.95
660.581	1.75
660.595	-2.05
660.608	-16.25
660.622	3.35
660.635	17.55
660.649	14.95
660.663	36.55
660.676	19.15
660.69	12.35
660.703	10.55
660.717	-3.45
660.73	-28.05
660.744	-12.25
660.757	-8.45
660.771	19.75
660.785	3.15
660.798	2.75
660.812	18.95
660.825	23.75
660.839	-9.45
660.852	5.75
660.866	32.35
660.879	27.35
660.893	-10.65
660.906	17.35
660.92	9.95
660.933	23.35
660.947	31.75
660.96	-20.65
660.974	8.55
660.987	53.35
661.001	-6.25
661.015	-25.25
661.028	-8.05
661.042	20.55
661.055	37.95
661.069	-6.65
661.082	-16.85
661.095	94.75
661.109	187.15
661.122	0.75
661.136	-11.25
661.149	-26.65
661.163	-9.05
661.176	26.15
661.19	21.55
661.203	83.95
661.217	77.75
661.23	13.75
661.244	3.95
661.257	25.75
661.271	-16.65
661.284	-9.05
661.298	-30.45
661.311	-11.45
661.324	9.15
661.338	-18.85
661.351	-26.25
661.365	13.95
661.378	8.75
661.392	-11.05
661.405	136.35
661.419	360.75
661.432	49.35
661.445	-3.45
661.459	5.35
661.472	30.95
661.486	21.15
661.499	0.15
661.512	-12.85
661.526	37.95
661.539	22.35
661.553	-2.05
661.566	-8.45
661.579	11.55
661.593	-17.25
661.606	-27.45
661.62	-5.65
661.633	17.35
661.646	11.15
661.66	-21.45
661.673	-19.65
661.687	17.95
661.7	54.95
661.713	-4.45
661.727	43.95
661.74	138.95
661.753	1.15
661.767	-11.65
661.78	24.15
661.794	56.15
661.807	-12.85
661.82	3.75
661.834	-1.05
661.847	-6.45
661.86	18.55
661.874	-6.65
661.887	-0.85
661.9	16.15
661.914	4.15
661.927	-17.65
661.94	-10.45
661.954	10.55
661.967	42.95
661.98	32.95
661.994	-14.25
662.007	11.95
662.02	36.95
662.034	-11.05
662.047	-9.25
662.06	-0.85
662.074	-17.25
662.087	-23.65
662.1	-5.25
662.114	22.35
662.127	26.95
662.14	-43.85
662.153	-7.05
662.167	34.95
662.18	-3.85
662.193	-11.65
662.207	-11.65
662.22	0.95
662.233	3.55
662.246	-15.25
662.26	9.75
662.273	13.15
662.286	-11.85
662.3	0.75
662.313	-25.25
662.326	-15.65
662.339	-0.25
662.353	-12.65
662.366	-24.25
662.379	-13.45
662.392	-2.25
662.406	4.15
662.419	4.95
662.432	39.35
662.445	1.55
662.459	-32.85
662.472	-21.25
662.485	1.55
662.498	-7.25
662.512	-2.05
662.525	8.35
662.538	-4.25
662.551	10.15
662.564	-13.05
662.578	-5.05
662.591	34.95
662.604	39.95
662.617	-5.25
662.63	7.95
662.644	19.95
662.657	-0.25
662.67	8.15
662.683	17.75
662.696	1.15
662.71	2.35
662.723	0.75
662.736	10.55
662.749	30.75
662.762	14.75
662.776	-2.85
662.789	11.75
662.802	46.55
662.815	45.35
662.828	-1.05
662.841	-19.05
662.855	13.75
662.868	12.75
662.881	-34.05
662.894	-24.85
662.907	17.75
662.92	67.95
662.934	-12.45
662.947	-8.45
662.96	14.15
662.973	8.35
662.986	-20.85
662.999	-31.05
663.012	20.55
663.026	21.35
663.039	10.15
663.052	-4.25
663.065	20.95
663.078	21.35
663.091	14.35
663.104	-14.25
663.117	-14.45
663.131	-5.05
663.144	-6.85
663.157	-26.25
663.17	16.95
663.183	34.75
663.196	10.15
663.209	7.55
663.222	30.35
663.235	36.35
663.248	-28.05
663.262	-42.25
663.275	-19.45
663.288	5.95
663.301	-7.65
663.314	-7.05
663.327	27.55
663.34	35.75
663.353	-14.05
663.366	-22.05
663.379	37.95
663.392	54.95
663.405	-32.85
663.418	-41.05
663.431	-12.05
663.445	7.15
663.458	-9.25
663.471	10.15
663.484	30.75
663.497	15.95
663.51	-36.25
663.523	-24.65
663.536	16.95
663.549	-25.45
663.562	-41.05
663.575	-35.85
663.588	-22.65
663.601	-6.65
663.614	-19.05
663.627	3.55
663.64	1.95
663.653	-3.25
663.666	-30.05
663.679	-27.05
663.692	55.75
663.705	66.35
663.718	-9.65
663.731	-14.45
663.744	6.55
663.757	38.75
663.77	7.35
663.783	14.55
663.796	31.35
663.809	13.95
663.822	-11.25
663.835	-42.45
663.848	-16.45
663.861	-10.85
663.874	-18.65
663.887	-6.85
663.9	-3.25
663.913	-9.45
663.926	-10.05
663.939	-14.25
663.952	31.35
663.965	70.75
663.978	10.35
663.991	-34.85
664.004	-0.65
664.017	17.75
664.03	-11.45
664.042	7.15
664.055	13.35
664.068	11.15
664.081	-14.85
664.094	11.35
664.107	32.75
664.12	27.15
664.133	-16.05
664.146	-15.45
664.159	0.95
664.172	-17.25
664.185	-10.85
664.198	-0.85
664.21	36.15
664.223	8.35
664.236	4.35
664.249	3.15
664.262	5.55
664.275	-4.25
664.288	9.95
664.301	24.55
664.314	-2.45
664.327	7.15
664.339	-25.05
664.352	-8.65
664.365	7.95
664.378	9.75
664.391	10.95
664.404	29.75
664.417	40.15
664.43	14.15
664.442	-6.45
664.455	-10.45
664.468	14.95
664.481	17.75
664.494	9.75
664.507	-38.45
664.52	-12.25
664.532	17.75
664.545	-5.05
664.558	5.35
664.571	5.75
664.584	5.35
664.597	-34.05
664.609	-9.25
664.622	25.15
664.635	13.95
664.648	-1.85
664.661	-14.05
664.674	7.35
664.686	0.95
664.699	-20.65
664.712	-3.45
664.725	-8.25
664.738	-4.25
664.751	2.95
664.763	4.75
664.776	6.15
664.789	50.35
664.802	0.95
664.815	-12.85
664.827	5.15
664.84	7.55
664.853	-38.65
664.866	-14.45
664.878	-10.65
664.891	-15.85
664.904	8.95
664.917	14.35
664.93	-0.05
664.942	22.75
664.955	13.95
664.968	16.75
664.981	32.95
664.993	1.75
665.006	-6.65
665.019	14.75
665.032	19.75
665.044	2.55
665.057	5.55
665.07	-17.25
665.083	-33.05
665.095	-14.25
665.108	-12.05
665.121	-17.05
665.134	-18.05
665.146	33.75
665.159	8.35
665.172	2.15
665.185	-5.25
665.197	9.95
665.21	-17.65
665.223	-8.25
665.235	86.15
665.248	167.75
665.261	9.35
665.274	-11.05
665.286	44.55
665.299	29.55
665.312	-16.25
665.324	35.75
665.337	34.15
665.35	1.95
665.362	-20.05
665.375	-11.05
665.388	20.15
665.4	40.35
665.413	7.55
665.426	-1.65
665.438	-9.85
665.451	0.75
665.464	-12.85
665.476	4.55
665.489	30.35
665.502	22.75
665.514	-12.85
665.527	3.75
665.54	1.35
665.552	-17.85
665.565	-18.85
665.578	-16.85
665.59	14.35
665.603	27.15
665.616	26.15
665.628	20.15
665.641	12.15
665.654	-18.25
665.666	-2.05
665.679	4.75
665.691	44.35
665.704	23.75
665.717	-17.45
665.729	-12.25
665.742	12.15
665.755	-27.05
665.767	-26.45
665.78	-6.85
665.792	53.55
665.805	20.35
665.818	-5.25
665.83	-23.45
665.843	30.15
665.855	-7.05
665.868	-10.45
665.881	9.95
665.893	35.75
665.906	-5.05
665.918	-17.65
665.931	-25.45
665.943	38.55
665.956	28.15
665.969	-26.85
665.981	-25.05
665.994	-46.65
666.006	-51.05
666.019	-28.25
666.031	15.35
666.044	28.15
666.057	34.75
666.069	12.55
666.082	-10.65
666.094	10.95
666.107	12.95
666.119	-2.05
666.132	-10.65
666.144	-8.65
666.157	-23.85
666.169	-25.45
666.182	-8.05
666.194	16.55
666.207	23.15
666.22	22.55
666.232	15.95
666.245	5.35
666.257	35.75
666.27	-8.05
666.282	-1.45
666.295	0.75
666.307	-6.05
666.32	-9.85
666.332	8.15
666.345	23.15
666.357	25.15
666.37	22.15
666.382	12.35
666.395	34.95
666.407	-2.05
666.42	2.15
666.432	12.95
666.445	26.95
666.457	-13.05
666.469	-9.25
666.482	-3.25
666.494	30.75
666.507	30.75
666.519	-10.45
666.532	-39.05
666.544	-11.25
666.557	24.55
666.569	-6.25
666.582	3.35
666.594	40.15
666.607	25.15
666.619	-0.05
666.631	12.35
666.644	28.35
666.656	7.15
666.669	14.35
666.681	23.55
666.694	42.15
666.706	37.15
666.718	-7.45
666.731	-1.45
666.743	-1.45
666.756	30.75
666.768	-4.25
666.78	-20.25
666.793	3.55
666.805	23.95
666.818	-6.45
666.83	0.95
666.843	14.15
666.855	-17.45
666.867	-6.45
666.88	-27.85
666.892	-3.65
666.904	23.95
666.917	16.15
666.929	-10.45
666.942	41.75
666.954	66.15
666.966	-17.65
666.979	-16.85
666.991	-31.25
667.003	3.95
667.016	3.75
667.028	11.15
667.041	-17.65
667.053	1.95
667.065	-0.45
667.078	-27.05
667.09	11.75
667.102	31.55
667.115	-23.85
667.127	-20.65
667.139	1.75
667.152	45.35
667.164	0.15
667.176	-2.45
667.189	-16.65
667.201	-30.45
667.213	-35.45
667.226	-16.65
667.238	16.35
667.25	19.55
667.263	24.35
667.275	-6.85
667.287	18.55
667.3	37.75
667.312	29.55
667.324	22.75
667.337	13.15
667.349	31.15
667.361	-7.65
667.373	-37.45
667.386	-4.05
667.398	11.15
667.41	-16.65
667.423	56.35
667.435	51.55
667.447	13.15
667.459	-2.25
667.472	16.55
667.484	31.95
667.496	-17.65
667.508	-31.25
667.521	5.55
667.533	13.95
667.545	29.35
667.558	1.55
667.57	2.35
667.582	1.55
667.594	0.95
667.607	14.95
667.619	4.95
667.631	55.75
667.643	52.75
667.655	-10.05
667.668	7.55
667.68	14.75
667.692	13.55
667.704	-7.05
667.717	-5.85
667.729	29.15
667.741	36.35
667.753	28.55
667.766	17.55
667.778	13.15
667.79	25.95
667.802	6.55
667.814	-15.85
667.827	27.55
667.839	37.35
667.851	-25.25
667.863	-32.65
667.875	-23.25
667.888	-12.45
667.9	-2.65
667.912	-13.85
667.924	-18.45
667.936	-0.85
667.948	1.55
667.961	10.35
667.973	3.55
667.985	6.55
667.997	-17.45
668.009	-5.25
668.021	47.35
668.034	41.55
668.046	-5.05
668.058	-41.85
668.07	-5.45
668.082	13.15
668.094	54.15
668.107	46.75
668.119	45.75
668.131	19.75
668.143	-3.65
668.155	10.75
668.167	35.95
668.179	33.15
668.192	-16.45
668.204	1.15
668.216	25.15
668.228	0.75
668.24	7.55
668.252	33.75
668.264	43.55
668.276	-7.25
668.288	-12.85
668.301	-17.65
668.313	-0.45
668.325	5.55
668.337	-28.25
668.349	-27.65
668.361	22.95
668.373	34.95
668.385	-7.05
668.397	0.55
668.409	-22.45
668.422	7.55
668.434	-3.25
668.446	11.75
668.458	20.55
668.47	-4.85
668.482	-14.05
668.494	-3.45
668.506	42.75
668.518	21.95
668.53	10.15
668.542	8.75
668.554	14.55
668.566	23.15
668.578	-10.25
668.59	15.35
668.602	2.95
668.615	-10.05
668.627	-14.85
668.639	0.15
668.651	23.15
668.663	29.55
668.675	-17.65
668.687	2.75
668.699	66.75
668.711	23.55
668.723	1.15
668.735	2.35
668.747	6.35
668.759	1.55
668.771	-24.85
668.783	-32.45
668.795	12.55
668.807	15.95
668.819	-18.65
668.831	-2.25
668.843	-9.45
668.855	35.35
668.867	-30.25
668.879	-20.45
668.891	28.75
668.903	44.55
668.915	6.35
668.927	-10.65
668.939	16.35
668.951	11.95
668.963	-15.25
668.975	-0.85
668.987	34.35
668.999	26.55
669.011	7.75
669.023	20.55
669.035	53.95
669.046	3.15
669.058	0.15
669.07	1.55
669.082	3.15
669.094	-23.65
669.106	-34.05
669.118	4.75
669.13	40.75
669.142	27.95
669.154	25.15
669.166	1.75
669.178	0.95
669.19	-15.25
669.202	-27.65
669.214	-7.45
669.226	29.95
669.237	21.95
669.249	-0.45
669.261	-22.05
669.273	31.35
669.285	40.15
669.297	-2.05
669.309	6.15
669.321	25.55
669.333	42.15
669.345	-15.65
669.356	-26.25
669.368	-11.05
669.38	7.75
669.392	-29.65
669.404	-13.25
669.416	-4.25
669.428	-17.05
669.44	-38.45
669.451	-36.85
669.463	-6.25
669.475	15.35
669.487	-21.65
669.499	-4.85
669.511	30.75
669.523	6.75
669.535	-6.05
669.546	-6.65
669.558	23.15
669.57	-3.25
669.582	-40.65
669.594	-20.05
669.606	7.55
669.617	1.15
669.629	-20.65
669.641	-6.25
669.653	24.75
669.665	12.35
669.677	-16.45
669.688	-13.45
669.7	16.35
669.712	48.35
669.724	3.15
669.736	-1.65
669.747	0.55
669.759	3.55
669.771	-3.85
669.783	0.75
669.795	16.75
669.807	6.35
669.818	-26.65
669.83	2.95
669.842	5.35
669.854	-12.45
669.865	-14.45
669.877	15.75
669.889	41.75
669.901	37.35
669.913	8.15
669.924	43.95
669.936	79.75
669.948	42.75
669.96	-4.85
669.971	-18.25
669.983	-2.05
669.995	14.35
670.007	-0.25
670.018	16.75
670.03	37.15
670.042	-10.65
670.054	0.95
670.065	-17.05
670.077	8.95
670.089	20.95
670.101	-6.05
670.112	-3.05
670.124	37.95
670.136	31.75
670.148	-22.65
670.159	-25.45
670.171	-2.05
670.183	-17.85
670.194	-7.85
670.206	9.35
670.218	20.15
670.23	28.55
670.241	-17.25
670.253	7.35
670.265	63.35
670.276	46.95
670.288	1.15
670.3	-3.65
670.312	7.15
670.323	-3.05
670.335	-28.05
670.347	-21.45
670.358	34.95
670.37	28.35
670.382	-12.85
670.393	-17.05
670.405	2.15
670.417	-5.85
670.428	-4.45
670.44	3.15
670.452	28.75
670.463	3.55
670.475	-29.25
670.487	-14.45
670.498	24.75
670.51	13.75
670.522	-14.25
670.533	6.35
670.545	2.35
670.557	-22.25
670.568	5.35
670.58	-6.25
670.591	-4.25
670.603	-10.45
670.615	-13.25
670.626	-12.85
670.638	-1.85
670.65	23.35
670.661	-7.85
670.673	-33.25
670.684	1.35
670.696	20.75
670.708	-12.05
670.719	5.95
670.731	60.75
670.742	51.55
670.754	1.75
670.766	14.35
670.777	31.75
670.789	1.15
670.8	-18.05
670.812	-10.05
670.824	13.35
670.835	18.55
670.847	-20.45
670.858	-21.25
670.87	-6.65
670.881	7.75
670.893	-29.65
670.905	-30.05
670.916	-16.25
670.928	7.95
670.939	11.35
670.951	14.95
670.962	12.55
670.974	-11.65
670.986	-15.25
670.997	-19.85
671.009	-8.65
671.02	-2.45
671.032	-29.85
671.043	-15.85
671.055	14.75
671.066	14.75
671.078	-10.25
671.089	-5.45
671.101	23.95
671.112	33.75
671.124	2.55
671.135	0.95
671.147	15.75
671.158	-2.45
671.17	7.95
671.181	36.35
671.193	31.55
671.204	52.75
671.216	-8.65
671.227	-8.25
671.239	5.55
671.25	-9.65
671.262	-8.45
671.273	-22.85
671.285	-1.05
671.296	-14.45
671.308	-11.65
671.319	-18.65
671.331	-11.85
671.342	25.15
671.354	10.55
671.365	-0.85
671.377	-27.25
671.388	-27.85
671.4	-24.85
671.411	-12.05
671.423	-12.65
671.434	14.55
671.446	20.95
671.457	7.75
671.468	28.75
671.48	27.35
671.491	-8.25
671.503	27.55
671.514	30.75
671.526	21.95
671.537	-7.25
671.548	-15.45
671.56	15.55
671.571	7.95
671.583	-9.65
671.594	19.55
671.606	70.75
671.617	41.75
671.628	-13.65
671.64	-7.85
671.651	7.75
671.663	-8.45
671.674	-35.45
671.685	-26.45
671.697	-29.25
671.708	-27.85
671.72	-10.45
671.731	-24.05
671.742	9.55
671.754	0.35
671.765	-22.05
671.777	-27.65
671.788	9.15
671.799	45.15
671.811	4.35
671.822	-1.65
671.833	-12.25
671.845	3.75
671.856	5.75
671.868	15.75
671.879	53.95
671.89	91.35
671.902	-1.65
671.913	-31.25
671.924	-26.85
671.936	-2.45
671.947	-23.65
671.958	-15.65
671.97	49.35
671.981	25.55
671.992	-2.25
672.004	-25.05
672.015	16.55
672.026	8.15
672.038	-18.65
672.049	-15.85
672.06	-9.05
672.072	-18.65
672.083	-16.05
672.094	-8.45
672.106	56.35
672.117	94.15
672.128	3.15
672.139	-19.05
672.151	-9.25
672.162	-4.65
672.173	-19.45
672.185	-6.25
672.196	40.95
672.207	31.15
672.219	6.35
672.23	25.35
672.241	42.55
672.252	6.75
672.264	-16.05
672.275	-7.85
672.286	30.75
672.297	27.35
672.309	-10.05
672.32	-6.65
672.331	14.35
672.342	5.55
672.354	-33.25
672.365	-8.85
672.376	12.15
672.387	-18.05
672.399	-22.45
672.41	-3.65
672.421	45.35
672.432	49.75
672.444	-0.25
672.455	-16.05
672.466	28.95
672.477	11.55
672.489	-0.25
672.5	-1.25
672.511	3.75
672.522	6.15
672.533	-14.65
672.545	2.55
672.556	45.15
672.567	4.15
672.578	-18.05
672.59	0.15
672.601	6.75
672.612	-6.05
672.623	-9.45
672.634	4.95
672.646	23.15
672.657	-0.65
672.668	-25.45
672.679	-29.25
672.69	-10.85
672.701	-23.45
672.713	-29.85
672.724	-32.65
672.735	-15.45
672.746	10.75
672.757	-12.25
672.768	-12.45
672.78	7.35
672.791	-3.25
672.802	-37.65
672.813	-5.85
672.824	26.15
672.835	21.95
672.847	-25.25
672.858	-17.45
672.869	9.75
672.88	21.55
672.891	-14.85
672.902	7.15
672.913	10.35
672.925	-11.05
672.936	-24.45
672.947	11.75
672.958	45.95
672.969	-9.25
672.98	-8.25
672.991	16.55
673.002	12.55
673.013	-11.45
673.025	-33.05
673.036	-13.05
673.047	26.15
673.058	-1.25
673.069	-11.65
673.08	-12.25
673.091	6.35
673.102	-35.85
673.113	-18.25
673.124	9.95
673.136	41.55
673.147	24.15
673.158	-9.05
673.169	-8.45
673.18	1.15
673.191	-17.85
673.202	-18.45
673.213	-13.05
673.224	19.15
673.235	25.15
673.246	-9.65
673.257	-11.45
673.268	17.35
673.279	19.35
673.29	-11.05
673.301	16.95
673.313	14.35
673.324	3.95
673.335	-17.45
673.346	-2.65
673.357	10.35
673.368	-22.65
673.379	-24.05
673.39	-4.05
673.401	42.95
673.412	8.35
673.423	3.75
673.434	-9.05
673.445	25.35
673.456	-3.65
673.467	-36.05
673.478	6.55
673.489	40.95
673.5	4.35
673.511	-12.65
673.522	14.35
673.533	72.95
673.544	37.35
673.555	-10.85
673.566	11.95
673.577	18.95
673.588	-6.05
673.599	6.95
673.61	-11.85
673.621	46.35
673.632	88.15
673.643	3.95
673.654	-14.45
673.665	13.55
673.676	-12.65
673.687	-16.25
673.698	-22.85
673.709	16.55
673.719	25.15
673.73	21.35
673.741	61.15
673.752	72.55
673.763	77.75
673.774	-11.05
673.785	1.55
673.796	21.15
673.807	18.75
673.818	-17.25
673.829	19.35
673.84	50.95
673.851	38.55
673.862	-12.25
673.873	-16.65
673.883	35.15
673.894	20.55
673.905	-1.25
673.916	6.35
673.927	31.55
673.938	44.35
673.949	-12.85
673.96	-11.65
673.971	14.75
673.982	24.55
673.993	-8.05
674.003	-4.65
674.014	8.35
674.025	5.55
674.036	-40.45
674.047	-28.25
674.058	13.55
674.069	13.15
674.08	-10.25
674.09	14.35
674.101	-9.65
674.112	-38.05
674.123	-23.25
674.134	-16.45
674.145	-12.85
674.156	-7.45
674.166	-12.85
674.177	-31.45
674.188	-0.25
674.199	3.75
674.21	-35.05
674.221	-27.85
674.232	-6.25
674.242	-25.65
674.253	-15.45
674.264	31.15
674.275	40.15
674.286	-19.65
674.297	-33.85
674.307	-21.05
674.318	2.35
674.329	-2.05
674.34	0.35
674.351	-8.85
674.361	8.35
674.372	26.15
674.383	-29.05
674.394	-28.25
674.405	40.55
674.415	27.35
674.426	-23.05
674.437	-24.05
674.448	-5.45
674.459	-1.85
674.469	-3.45
674.48	5.35
674.491	-9.45
674.502	-10.45
674.512	-28.05
674.523	-46.25
674.534	-50.45
674.545	-45.65
674.556	-34.45
674.566	-20.05
674.577	-2.85
674.588	8.75
674.599	-23.65
674.609	-17.05
674.62	20.35
674.631	15.75
674.642	-32.45
674.652	-17.85
674.663	9.95
674.674	23.35
674.685	7.75
674.695	45.75
674.706	34.95
674.717	-1.65
674.727	-31.65
674.738	-26.85
674.749	2.35
674.76	-6.85
674.77	-5.65
674.781	-29.05
674.792	29.55
674.802	18.95
674.813	-14.05
674.824	0.15
674.835	11.75
674.845	-25.65
674.856	-24.45
674.867	-9.45
674.877	-12.45
674.888	0.75
674.899	-11.85
674.909	-4.45
674.92	31.75
674.931	10.15
674.941	-32.85
674.952	-6.05
674.963	57.75
674.973	41.95
674.984	7.15
674.995	4.55
675.005	-5.25
675.016	-4.05
675.027	-17.45
675.037	-20.45
675.048	8.55
675.059	25.95
675.069	1.95
675.08	1.95
675.091	-31.65
675.101	-33.65
675.112	-29.65
675.123	14.35
675.133	36.35
675.144	6.95
675.154	-20.85
675.165	-26.45
675.176	26.55
675.186	41.35
675.197	13.15
675.208	11.35
675.218	13.15
675.229	2.55
675.239	8.55
675.25	15.15
675.261	37.55
675.271	20.75
675.282	6.95
675.292	0.75
675.303	15.95
675.314	5.55
675.324	-11.65
675.335	-31.85
675.345	-10.85
675.356	-18.65
675.366	-52.05
675.377	-47.25
675.388	-5.05
675.398	-2.05
675.409	-17.45
675.419	-1.05
675.43	40.95
675.44	24.55
675.451	-11.65
675.462	-0.25
675.472	26.35
675.483	26.55
675.493	9.35
675.504	4.35
675.514	4.15
675.525	3.95
675.535	-34.25
675.546	-11.45
675.556	22.75
675.567	4.75
675.578	-19.85
675.588	-23.65
675.599	23.55
675.609	3.95
675.62	-23.85
675.63	-12.25
675.641	-17.25
675.651	-12.45
675.662	2.95
675.672	-23.05
675.683	9.95
675.693	3.55
675.704	-26.25
675.714	24.95
675.725	77.35
675.735	32.55
675.746	10.55
675.756	-21.05
675.767	-11.25
675.777	-9.45
675.788	-4.25
675.798	-6.65
675.809	49.95
675.819	67.35
675.829	-0.25
675.84	-1.25
675.85	27.75
675.861	32.95
675.871	23.75
675.882	7.75
675.892	28.95
675.903	32.95
675.913	-7.45
675.924	-2.25
675.934	-4.45
675.944	3.15
675.955	1.35
675.965	-18.85
675.976	28.55
675.986	49.95
675.997	-15.85
676.007	10.75
676.018	29.35
676.028	15.55
676.038	-18.65
676.049	-8.45
676.059	3.55
676.07	12.95
676.08	37.95
676.09	5.55
676.101	-9.45
676.111	-3.85
676.122	-3.85
676.132	-1.65
676.142	24.75
676.153	-0.85
676.163	-33.45
676.174	-24.05
676.184	-31.05
676.194	1.35
676.205	-29.45
676.215	-27.45
676.226	9.95
676.236	42.95
676.246	12.15
676.257	-21.85
676.267	-25.85
676.277	-13.65
676.288	17.35
676.298	-7.65
676.308	17.95
676.319	-17.85
676.329	-4.65
676.34	24.35
676.35	41.95
676.36	3.35
676.371	-16.85
676.381	-26.05
676.391	-23.85
676.402	5.35
676.412	13.55
676.422	-9.25
676.433	23.15
676.443	57.35
676.453	7.75
676.464	-19.25
676.474	12.55
676.484	23.15
676.494	-12.85
676.505	9.95
676.515	32.95
676.525	44.95
676.536	-2.25
676.546	12.15
676.556	33.35
676.567	1.55
676.577	-7.65
676.587	10.15
676.597	28.75
676.608	7.75
676.618	-19.45
676.628	-26.05
676.639	-34.65
676.649	-23.45
676.659	-19.85
676.669	-32.25
676.68	1.15
676.69	52.15
676.7	26.15
676.71	4.55
676.721	83.75
676.731	47.35
676.741	-1.65
676.751	11.35
676.762	53.15
676.772	-3.45
676.782	-44.25
676.792	-13.45
676.803	29.15
676.813	-25.05
676.823	-38.45
676.833	14.75
676.844	67.75
676.854	-10.45
676.864	-9.85
676.874	-11.85
676.885	31.15
676.895	29.75
676.905	-54.85
676.915	-41.65
676.925	-10.05
676.936	9.95
676.946	-15.05
676.956	-36.05
676.966	-27.85
676.976	-16.65
676.987	-28.05
676.997	-27.65
677.007	14.75
677.017	44.35
677.027	3.35
677.038	3.35
677.048	6.15
677.058	-16.65
677.068	-45.65
677.078	-34.25
677.088	11.75
677.099	-14.45
677.109	-27.85
677.119	-8.65
677.129	33.55
677.139	15.95
677.149	-42.85
677.16	-43.25
677.17	8.15
677.18	8.95
677.19	-21.25
677.2	-42.25
677.21	-26.85
677.22	-11.25
677.231	-40.65
677.241	-46.05
677.251	7.55
677.261	12.95
677.271	-19.65
677.281	-39.85
677.291	8.35
677.301	-3.25
677.312	-1.85
677.322	74.35
677.332	-9.85
677.342	-13.25
677.352	-28.45
677.362	-6.05
677.372	37.95
677.382	43.75
677.392	22.95
677.402	-17.65
677.413	-17.25
677.423	-7.85
677.433	-31.85
677.443	-24.65
677.453	15.75
677.463	-18.05
677.473	-54.85
677.483	-45.25
677.493	10.15
677.503	-5.65
677.513	-22.45
677.523	-5.65
677.533	35.95
677.544	8.55
677.554	-35.05
677.564	-2.65
677.574	65.75
677.584	13.75
677.594	-55.45
677.604	-40.65
677.614	4.95
677.624	-2.25
677.634	-28.65
677.644	20.35
677.654	53.35
677.664	17.15
677.674	-37.85
677.684	-23.05
677.694	17.15
677.704	-6.85
677.714	-39.65
677.724	-39.25
677.734	4.55
677.744	-19.05
677.754	-50.85
677.764	-26.05
677.774	13.55
677.784	25.75
677.794	-36.85
677.804	-2.45
677.814	17.35
677.824	-30.45
677.834	-52.65
677.844	-22.25
677.854	17.95
677.864	24.55
677.874	-38.65
677.884	-20.45
677.894	30.35
677.904	11.35
677.914	-20.45
677.924	2.75
677.934	71.35
677.944	30.75
677.954	-38.85
677.964	-21.45
677.974	11.55
677.984	-4.45
677.994	-32.45
678.004	-12.85
678.014	3.95
678.024	-5.45
678.033	-24.65
678.043	-22.45
678.053	-2.25
678.063	-2.25
678.073	-36.85
678.083	-18.85
678.093	42.35
678.103	8.15
678.113	-37.85
678.123	-5.85
678.133	15.15
678.143	-6.85
678.153	-25.85
678.162	-23.45
678.172	-4.85
678.182	-11.85
678.192	-37.25
678.202	-32.65
678.212	-13.45
678.222	19.95
678.232	-9.85
678.242	-14.65
678.252	19.35
678.261	40.15
678.271	-13.05
678.281	-6.25
678.291	40.15
678.301	12.95
678.311	-40.65
678.321	-24.25
678.331	15.35
678.34	-5.25
678.35	-49.65
678.36	-22.05
678.37	12.35
678.38	9.75
678.39	-46.65
678.4	-26.05
678.409	1.95
678.419	-21.85
678.429	-44.25
678.439	-10.65
678.449	6.15
678.459	10.15
678.468	-23.45
678.478	-37.25
678.488	4.15
678.498	31.55
678.508	-15.85
678.518	-13.25
678.527	39.75
678.537	19.95
678.547	-36.25
678.557	-48.85
678.567	-17.05
678.576	-25.05
678.586	-51.25
678.596	-2.25
678.606	11.75
678.616	-33.85
678.625	-39.65
678.635	12.35
678.645	29.75
678.655	-6.45
678.665	-28.45
678.674	-6.65
678.684	23.55
678.694	-2.45
678.704	-32.85
678.713	-10.05
678.723	33.95
678.733	16.35
678.743	-35.05
678.752	-40.05
678.762	-0.25
678.772	13.55
678.782	-37.25
678.791	-12.45
678.801	14.95
678.811	-13.85
678.821	-49.45
678.83	-11.45
678.84	21.55
678.85	-24.25
678.86	-29.85
678.869	-6.65
678.879	33.95
678.889	18.55
678.899	-26.05
678.908	-13.85
678.918	1.55
678.928	-3.65
678.937	-48.85
678.947	-25.65
678.957	2.55
678.967	10.75
678.976	-28.25
678.986	1.35
678.996	-15.45
679.005	-27.45
679.015	-33.05
679.025	-36.45
679.034	-9.65
679.044	22.15
679.054	-19.45
679.063	-21.05
679.073	-0.85
679.083	-1.05
679.093	-30.05
679.102	-5.45
679.112	2.35
679.122	-20.25
679.131	-33.25
679.141	-27.45
679.151	-1.65
679.16	-17.65
679.17	-59.05
679.179	-8.05
679.189	26.55
679.199	-31.85
679.208	-39.25
679.218	-14.65
679.228	21.75
679.237	5.55
679.247	-29.85
679.257	-25.45
679.266	11.95
679.276	19.15
679.285	-40.65
679.295	-19.25
679.305	-4.85
679.314	-27.25
679.324	-38.65
679.334	-28.85
679.343	51.75
679.353	61.35
679.362	-40.65
679.372	-0.45
679.382	44.15
679.391	-17.45
679.401	10.55
679.41	-20.45
679.42	7.55
679.43	-3.05
679.439	-42.05
679.449	-6.05
679.458	55.95
679.468	5.15
679.477	-50.65
679.487	-28.45
679.497	21.75
679.506	12.75
679.516	-28.65
679.525	-12.05
679.535	41.95
679.544	5.55
679.554	-30.05
679.564	-19.05
679.573	18.55
679.583	3.35
679.592	-32.45
679.602	-3.25
679.611	47.55
679.621	8.55
679.63	-36.05
679.64	-1.25
679.649	48.15
679.659	13.95
679.669	-41.25
679.678	-7.05
679.688	27.55
679.697	33.95
679.707	12.55
679.716	12.55
679.726	59.75
679.735	27.35
679.745	-45.85
679.754	-35.45
679.764	30.95
679.773	28.95
679.783	-33.85
679.792	-15.65
679.802	26.55
679.811	-11.65
679.821	-40.85
679.83	-6.65
679.84	39.15
679.849	0.75
679.859	-25.05
679.868	-26.05
679.877	17.55
679.887	-14.65
679.896	-43.45
679.906	-20.25
679.915	26.35
679.925	10.75
679.934	-22.65
679.944	7.75
679.953	43.55
679.963	13.95
679.972	-31.65
679.982	-19.05
679.991	-4.25
680	-6.65
680.01	-46.65
680.019	-36.85
680.029	1.95
680.038	44.75
680.048	-32.25
680.057	-21.85
680.066	8.75
680.076	-24.85
680.085	-47.25
680.095	-20.25
680.104	-2.45
680.114	-32.85
680.123	-40.85
680.132	-8.05
680.142	48.55
680.151	8.75
680.161	-46.25
680.17	-21.45
680.179	25.15
680.189	22.55
680.198	-40.05
680.208	-38.65
680.217	-3.25
